Folder: repo1

Note: README.md
# repo1
used to store all project file

File: XRD of Go Ce5-Refluxometry method-11-05-2022.csv
Calc. data,,Go Ce5,,Individual peaks,,Peak bar 1,,,,,,,,5,-574.33
2θ - °,Intensity - cps,2θ - °,Intensity - cps,2θ - °,Intensity - cps,2θ - °,Y,Intensity - cps,,,,,,5.05,-191.5905
5,1.46E-13,5,-574.33,5,1.46E-13,28.74943,0,0,,,,,,5.1,-135.5277
5.65,1.54E-13,5.65,-69.5006,5.65,1.54E-13,,,,,,,,,5.75,-210.9593
6.3,1.63E-13,6.3,80.30647,6.3,1.63E-13,,,,,,,,,6.4,181.9229
6.95,1.73E-13,6.95,175.1091,6.95,1.73E-13,,,,,,,,,7.05,173.1367
7.6,1.83E-13,7.6,-65.07465,7.6,1.83E-13,,,,,,,,,7.7,82.70021
8.25,1.95E-13,8.25,13.10644,8.25,1.95E-13,,,,,,,,,8.35,-29.36865
8.9,2.08E-13,8.9,-60.32961,8.9,2.08E-13,,,,,,,,,9,50.28143
9.55,2.22E-13,9.55,84.63517,9.55,2.22E-13,,,,,,,,,9.65,8.335111
10.2,2.38E-13,10.2,31.35207,10.2,2.38E-13,,,,,,,,,10.3,-11.85632
10.85,0.2500784,10.85,-23.49425,10.85,2.56E-13,,,,,,,,,10.95,-10.27488
11.5,0.2573665,11.5,-59.88583,11.5,2.75E-13,,,,,,,,,11.6,43.0974
12.15,0.2649779,12.15,-21.13803,12.15,2.97E-13,,,,,,,,,12.25,-15.05483
12.8,0.2729319,12.8,-97.23287,12.8,3.22E-13,,,,,,,,,12.9,108.6197
13.45,0.5974735,13.45,-81.48572,13.45,3.50E-13,,,,,,,,,13.55,17.47237
14.1,0.8429284,14.1,-33.87859,14.1,3.81E-13,,,,,,,,,14.2,61.52108
14.75,0.8814362,14.75,-11.06019,14.75,4.17E-13,,,,,,,,,14.85,-22.54949
15.4,0.9230137,15.4,-16.34587,15.4,4.59E-13,,,,,,,,,15.5,1.945281
16.05,0.9680408,16.05,13.61567,16.05,5.07E-13,,,,,,,,,16.15,-38.30996
16.7,1.016965,16.7,-81.15759,16.7,5.62E-13,,,,,,,,,16.8,-123.2972
17.35,1.070316,17.35,46.01899,17.35,6.28E-13,,,,,,,,,17.45,17.00143
18,1.128729,18,-94.83662,18,7.05E-13,,,,,,,,,18.1,-77.396
18.65,1.192965,18.65,26.29355,18.65,7.98E-13,,,,,,,,,18.75,16.86178
19.3,1.263955,19.3,-40.57252,19.3,9.10E-13,,,,,,,,,19.4,79.79276
19.95,1.342843,19.95,7.916472,19.95,1.05E-12,,,,,,,,,20.05,-25.25177
20.6,1.431049,20.6,11.7785,20.6,1.22E-12,,,,,,,,,20.7,11.74617
21.25,1.530366,21.25,14.36488,21.25,1.44E-12,,,,,,,,,21.35,-152.5288
21.9,1.643082,21.9,39.0269,21.9,1.72E-12,,,,,,,,,22,-34.72532
22.55,1.772169,22.55,-7.550782,22.55,2.09E-12,,,,,,,,,22.65,8.507865
23.2,1.921548,23.2,-5.350203,23.2,2.59E-12,,,,,,,,,23.3,-6.144586
23.85,2.096501,23.85,-117.6867,23.85,3.30E-12,,,,,,,,,23.95,84.66863
24.5,2.304336,24.5,-41.20902,24.5,4.20E-05,,,,,,,,,24.6,-59.03451
25.15,2.559687,25.15,-62.56581,25.15,0.004507644,,,,,,,,,25.25,-47.23603
25.8,3.087932,25.8,-41.73911,25.8,0.2238858,,,,,,,,,25.9,43.41537
26.45,8.403552,26.45,21.28906,26.45,5.150315,,,,,,,,,26.55,22.93767
27.1,58.63551,27.1,79.87,27.1,54.87788,,,,,,,,,27.2,48.0155
27.75,275.2926,27.75,210.6884,27.75,270.8583,,,,,,,,,27.85,322.0002
28.4,624.6694,28.4,637.0954,28.4,619.2875,,,,,,,,,28.5,621.5764
29.05,597.899,29.05,622.4425,29.05,591.1154,,,,,,,,,29.15,636.762
29.7,173.9617,29.7,86.7476,29.7,164.949,,,,,,,,,29.8,210.9083
30.35,57.24179,30.35,16.69533,30.35,44.31549,,,,,,,,,30.45,77.36677
31,43.09916,31,18.97033,31,22.23595,,,,,,,,,31.1,-0.511408
31.65,54.72958,31.65,73.59058,31.65,13.66728,,,,,,,,,31.75,73.95844
32.3,104.0821,32.3,260.5741,32.3,9.217058,,,,,,,,,32.4,230.7943
32.95,243.8485,32.95,253.2721,32.95,6.622764,,,,,,,,,33.05,143.3474
33.6,183.9103,33.6,171.7026,33.6,4.983377,,,,,,,,,33.7,134.9691
34.25,54.44156,34.25,32.55026,34.25,3.883304,,,,,,,,,34.35,39.01075
34.9,11.42083,34.9,9.166374,34.9,3.11012,,,,,,,,,35,-21.17639
35.55,6.491515,35.55,18.23558,35.55,2.546329,,,,,,,,,35.65,7.758987
36.2,6.258174,36.2,3.109182,36.2,2.122754,,,,,,,,,36.3,-7.498472
36.85,6.373568,36.85,93.80516,36.85,1.796549,,,,,,,,,36.95,43.06921
37.5,6.642332,37.5,-12.99186,37.5,1.540043,,,,,,,,,37.6,49.48
38.15,7.064898,38.15,-7.263886,38.15,1.334731,,,,,,,,,38.25,11.75187
38.8,7.658383,38.8,97.67371,38.8,1.167856,,,,,,,,,38.9,-0.09720423
39.45,8.455703,39.45,35.17224,39.45,1.030399,,,,,,,,,39.55,43.95076
40.1,9.510735,40.1,-41.417,40.1,0.9158365,,,,,,,,,40.2,17.24705
40.75,10.90835,40.75,11.25732,40.75,0.8193557,,,,,,,,,40.85,-13.52368
41.4,12.78292,41.4,73.21314,41.4,0.737345,,,,,,,,,41.5,8.323213
42.05,15.35315,42.05,-15.53153,42.05,0.6670508,,,,,,,,,42.15,12.80569
42.7,18.99089,42.7,65.04125,42.7,0.6063444,,,,,,,,,42.8,36.6084
43.35,24.36674,43.35,28.28281,43.35,0.553559,,,,,,,,,43.45,63.08265
44,32.78593,44,60.87778,44,0.5073749,,,,,,,,,44.1,32.24641
44.65,47.05365,44.65,29.51081,44.65,0.4667359,,,,,,,,,44.75,47.45098
45.3,73.95135,45.3,20.86652,45.3,0.4307891,,,,,,,,,45.4,105.381
45.95,130.4562,45.95,124.9629,45.95,0.398839,,,,,,,,,46.05,152.7211
46.6,262.1218,46.6,241.8179,46.6,0.3703148,,,,,,,,,46.7,289.4893
47.25,597.0353,47.25,581.4495,47.25,0.3447436,,,,,,,,,47.35,729.0369
47.9,574.0096,47.9,633.8758,47.9,0.3217317,,,,,,,,,48,524.7151
48.55,307.3911,48.55,275.7812,48.55,0.3009486,,,,,,,,,48.65,256.5421
49.2,165.6804,49.2,150.5172,49.2,0.2821156,,,,,,,,,49.3,87.86898
49.85,102.9746,49.85,104.7683,49.85,0.2649963,,,,,,,,,49.95,45.38047
50.5,73.56634,50.5,95.21929,50.5,0.2493888,,,,,,,,,50.6,49.09453
51.15,59.36846,51.15,68.5547,51.15,0.2351204,,,,,,,,,51.25,52.36248
51.8,53.74281,51.8,71.45921,51.8,0.2220421,,,,,,,,,51.9,68.53561
52.45,54.55651,52.45,57.28411,52.45,0.2100252,,,,,,,,,52.55,110.9652
53.1,62.26636,53.1,89.38071,53.1,0.1989579,,,,,,,,,53.2,59.66936
53.75,80.16104,53.75,107.767,53.75,0.1887427,,,,,,,,,53.85,77.99924
54.4,115.9004,54.4,122.4609,54.4,0.1792944,,,,,,,,,54.5,112.6395
55.05,186.7919,55.05,170.1472,55.05,0.1705381,,,,,,,,,55.15,210.2749
55.7,344.471,55.7,330.8437,55.7,0.1624078,,,,,,,,,55.8,397.59
56.35,542.704,56.35,551.235,56.35,0.1548453,,,,,,,,,56.45,584.6027
57,395.9851,57,461.3394,57,0.1477989,,,,,,,,,57.1,324.6644
57.65,244.5637,57.65,171.1745,57.65,0.1412226,,,,,,,,,57.75,181.1264
58.3,184.0602,58.3,157.4251,58.3,0.1350757,,,,,,,,,58.4,194.0066
58.95,133.4873,58.95,113.4426,14,0.2219771,,,,,,,,,59.05,166.6564
59.6,93.77394,59.6,165.9114,14.65,0.237941,,,,,,,,,59.7,135.7605
60.25,67.73843,60.25,81.51637,15.3,0.2556907,,,,,,,,,60.35,61.33667
60.9,51.02803,60.9,23.6087,15.95,0.2755028,,,,,,,,,61,86.73634
61.55,39.83912,61.55,32.2064,16.6,0.2977097,,,,,,,,,61.65,38.64415
62.2,31.99925,62.2,73.99409,17.25,0.3227133,,,,,,,,,62.3,30.41139
62.85,26.29479,62.85,-1.010244,17.9,0.3510036,,,,,,,,,62.95,-1.277302
63.5,22.01361,63.5,3.878035,18.55,0.383183,,,,,,,,,63.6,3.596051
64.15,18.71691,64.15,-24.65643,19.2,0.419998,,,,,,,,,64.25,-1.617244
64.8,16.12272,64.8,13.40433,19.85,0.4623836,,,,,,,,,64.9,-23.56588
65.45,14.04333,65.45,8.078284,20.5,0.5115225,,,,,,,,,65.55,-5.56522
66.1,12.3499,66.1,36.05008,21.15,0.5689291,,,,,,,,,66.2,2.402713
66.75,10.95162,66.75,-29.32897,21.8,0.6365668,,,,,,,,,66.85,7.022558
67.4,9.782994,67.4,-18.04091,22.45,0.7170184,,,,,,,,,67.5,-28.35438
68.05,8.79582,68.05,13.26558,23.1,0.8137357,,,,,,,,,68.15,-17.04346
68.7,7.953969,68.7,31.27514,23.75,0.9314155,,,,,,,,,68.8,27.63996
69.35,7.229929,69.35,119.3391,24.4,1.07658,,,,,,,,,69.45,122.3805
70,6.60244,70,64.14201,25.05,1.258496,,,,,,,,,70.1,53.86286
70.65,6.054863,70.65,25.70195,25.7,1.490692,,,,,,,,,70.75,-44.56172
71.3,5.574018,71.3,17.37017,26.35,1.793534,,,,,,,,,71.4,17.12476
71.95,5.149356,71.95,-27.502,27,2.198838,,,,,,,,,72.05,-24.39306
72.6,4.772347,72.6,74.43673,27.65,2.758532,,,,,,,,,72.7,-12.43054
73.25,4.436433,73.25,-10.12899,28.3,3.562062,,,,,,,,,73.35,-26.96971
73.9,4.165239,73.9,25.48547,28.95,4.774192,,,,,,,,,74,32.0074
74.55,4.841806,74.55,-35.36857,29.6,6.725788,,,,,,,,,74.65,-32.14789
[...]
,,,,61.05,1.44E-15,,,,,,,,,,
,,,,61.2,1.47E-15,,,,,,,,,,
,,,,61.35,1.50E-15,,,,,,,,,,
,,,,61.5,1.53E-15,,,,,,,,,,
,,,,61.65,1.56E-15,,,,,,,,,,
,,,,61.8,1.59E-15,,,,,,,,,,
,,,,61.95,1.62E-15,,,,,,,,,,
,,,,62.1,1.66E-15,,,,,,,,,,
,,,,62.25,1.69E-15,,,,,,,,,,
,,,,62.4,1.73E-15,,,,,,,,,,
,,,,62.55,1.76E-15,,,,,,,,,,
,,,,62.7,1.80E-15,,,,,,,,,,
,,,,62.85,1.84E-15,,,,,,,,,,
,,,,63,1.88E-15,,,,,,,,,,
,,,,63.15,1.92E-15,,,,,,,,,,
,,,,63.3,1.96E-15,,,,,,,,,,
,,,,63.45,2.01E-15,,,,,,,,,,
,,,,63.6,2.05E-15,,,,,,,,,,
,,,,63.75,2.10E-15,,,,,,,,,,
,,,,63.9,2.15E-15,,,,,,,,,,
,,,,64.05,2.20E-15,,,,,,,,,,
,,,,64.2,2.25E-15,,,,,,,,,,
,,,,64.35,2.30E-15,,,,,,,,,,
,,,,64.5,2.36E-15,,,,,,,,,,
,,,,64.65,2.42E-15,,,,,,,,,,
,,,,64.8,2.48E-15,,,,,,,,,,
,,,,64.95,2.54E-15,,,,,,,,,,
,,,,65.1,2.60E-15,,,,,,,,,,
,,,,65.25,2.67E-15,,,,,,,,,,
,,,,65.4,2.74E-15,,,,,,,,,,
,,,,65.55,2.81E-15,,,,,,,,,,
,,,,65.7,2.89E-15,,,,,,,,,,
,,,,65.85,2.97E-15,,,,,,,,,,
,,,,66,3.05E-15,,,,,,,,,,
,,,,66.15,3.14E-15,,,,,,,,,,
,,,,66.3,3.23E-15,,,,,,,,,,
,,,,66.45,3.32E-15,,,,,,,,,,
,,,,66.6,3.42E-15,,,,,,,,,,
,,,,66.75,3.52E-15,,,,,,,,,,
,,,,66.9,3.62E-15,,,,,,,,,,
,,,,67.05,3.73E-15,,,,,,,,,,
,,,,67.2,3.85E-15,,,,,,,,,,
,,,,67.35,3.97E-15,,,,,,,,,,
,,,,67.5,4.10E-15,,,,,,,,,,
,,,,67.65,4.23E-15,,,,,,,,,,
,,,,67.8,4.37E-15,,,,,,,,,,
,,,,67.95,4.52E-15,,,,,,,,,,
,,,,68.1,4.67E-15,,,,,,,,,,
,,,,68.25,4.84E-15,,,,,,,,,,
,,,,68.4,5.01E-15,,,,,,,,,,
,,,,68.55,5.19E-15,,,,,,,,,,
,,,,68.7,5.38E-15,,,,,,,,,,
,,,,68.85,5.58E-15,,,,,,,,,,
,,,,69,5.79E-15,,,,,,,,,,
,,,,69.15,6.02E-15,,,,,,,,,,
,,,,69.3,6.25E-15,,,,,,,,,,
,,,,69.45,6.51E-15,,,,,,,,,,
,,,,69.6,6.77E-15,,,,,,,,,,
,,,,69.75,7.06E-15,,,,,,,,,,
,,,,69.9,7.36E-15,,,,,,,,,,
,,,,70.05,7.68E-15,,,,,,,,,,
,,,,70.2,8.03E-15,,,,,,,,,,
,,,,70.35,8.40E-15,,,,,,,,,,
,,,,70.5,8.79E-15,,,,,,,,,,
,,,,70.65,9.21E-15,,,,,,,,,,
,,,,70.8,9.67E-15,,,,,,,,,,
,,,,70.95,1.02E-14,,,,,,,,,,
,,,,71.1,1.07E-14,,,,,,,,,,
,,,,71.25,1.12E-14,,,,,,,,,,
,,,,71.4,1.19E-14,,,,,,,,,,
,,,,71.55,1.25E-14,,,,,,,,,,
,,,,71.7,1.32E-14,,,,,,,,,,
,,,,71.85,1.40E-14,,,,,,,,,,
,,,,72,1.49E-14,,,,,,,,,,
,,,,72.15,1.58E-14,,,,,,,,,,
,,,,72.3,1.68E-14,,,,,,,,,,
,,,,72.45,5.72E-07,,,,,,,,,,
,,,,72.6,2.13E-06,,,,,,,,,,
,,,,72.75,8.11E-06,,,,,,,,,,
,,,,72.9,2.77E-05,,,,,,,,,,
,,,,73.05,9.01E-05,,,,,,,,,,
,,,,73.2,0.000280291,,,,,,,,,,
,,,,73.35,0.000832957,,,,,,,,,,
,,,,73.5,0.002364674,,,,,,,,,,
,,,,73.65,0.006413041,,,,,,,,,,
,,,,73.8,0.01661542,,,,,,,,,,
,,,,73.95,0.04112666,,,,,,,,,,
,,,,74.1,0.09725492,,,,,,,,,,
,,,,74.25,0.2197288,,,,,,,,,,
,,,,74.4,0.4743092,,,,,,,,,,
,,,,74.55,0.9782444,,,,,,,,,,
,,,,74.7,1.927778,,,,,,,,,,
,,,,74.85,3.62997,,,,,,,,,,
,,,,75,6.531286,,,,,,,,,,
,,,,75.15,11.22942,,,,,,,,,,
,,,,75.3,18.44985,,,,,,,,,,
,,,,75.45,28.968,,,,,,,,,,
,,,,75.6,43.46588,,,,,,,,,,
,,,,75.75,62.3299,,,,,,,,,,
,,,,75.9,85.42332,,,,,,,,,,
,,,,76.05,111.8928,,,,,,,,,,
,,,,76.2,140.0837,,,,,,,,,,
,,,,76.35,167.6277,,,,,,,,,,
,,,,76.5,191.73,,,,,,,,,,
,,,,76.65,209.6201,,,,,,,,,,
,,,,76.8,219.0723,,,,,,,,,,
,,,,76.95,220.6552,,,,,,,,,,
,,,,77.1,216.0826,,,,,,,,,,
,,,,77.25,207.2317,,,,,,,,,,
,,,,77.4,195.3617,,,,,,,,,,
,,,,77.55,181.733,,,,,,,,,,
,,,,77.7,167.5773,,,,,,,,,,
,,,,77.85,153.9195,,,,,,,,,,
,,,,78,141.4843,,,,,,,,,,
,,,,78.15,130.6827,,,,,,,,,,
,,,,78.3,121.6528,,,,,,,,,,
,,,,78.45,114.3259,,,,,,,,,,
,,,,78.6,108.4987,,,,,,,,,,
,,,,78.75,103.8965,,,,,,,,,,
,,,,78.9,100.223,,,,,,,,,,
,,,,79.05,97.19537,,,,,,,,,,
,,,,79.2,94.56622,,,,,,,,,,
,,,,79.35,92.13467,,,,,,,,,,
,,,,79.5,89.74975,,,,,,,,,,
,,,,79.65,87.30821,,,,,,,,,,
,,,,79.8,84.74895,,,,,,,,,,
,,,,79.95,82.04559,,,,,,,,,,
,,,,80,81.11188,,,,,,,,,,

File: XRD of GO.csv
5,114.9639
5.3,39.47198
5.6,194.5541
5.9,238.0262
6.2,247.7043
6.5,198.071
6.8,286.9422
7.1,258.8007
7.4,408.1289
7.7,546.0764
8,907.1255
8.3,1622.426
8.6,3036.46
8.9,8510.377
9.2,21748.66
9.5,8679.124
9.8,3349.586
10.1,1681.194
10.4,1185.099
10.7,765.7834
11,517.7287
11.3,368.6754
11.6,331.279
11.9,63.11127
12.2,118.3342
12.5,151.1098
12.8,-101.0663
13.1,262.6345
13.4,133.0409
13.7,164.3152
14,150.6193
14.3,156.1154
14.6,104.9655
14.9,65.49029
15.2,99.31055
15.5,-67.79429
15.8,26.62181
16.1,105.0049
16.4,-163.5324
16.7,36.78946
17,-94.91697
17.3,-112.8723
17.6,-87.96369
17.9,55.58808
18.2,123.4813
18.5,226.2135
18.8,219.0819
19.1,83.96895
19.4,-23.90934
19.7,-162.6704
20,116.2349
20.3,-211.9773
20.6,-88.75801
20.9,-15.55785
21.2,-0.4942722
21.5,-25.01803
21.8,69.70805
22.1,-62.99372
22.4,127.1535
22.7,-32.90657
23,-39.56385
23.3,4.125279
23.6,-64.89561
23.9,23.65038
24.2,-46.62651
24.5,-12.11605
24.8,-79.208
25.1,-80.96282
25.4,36.13337
25.7,38.8354
26,17.22743
26.3,1.393616
26.6,31.41812
26.9,44.05177
27.2,79.37872
27.5,44.14981
27.8,21.7825
28.1,-47.63902
28.4,32.63605
28.7,29.35856
29,15.94599
29.3,-14.18418
29.6,-47.61444
29.9,-14.26691
30.2,42.52994
30.5,9.400593
30.8,26.30204
31.1,59.85797
31.4,-49.97462
31.7,73.42794
32,-63.31067
32.3,-16.9001
32.6,-14.05003
32.9,35.19656
33.2,40.79668
33.5,52.70733
33.8,67.55219
34.1,-91.37841
34.4,49.20589
34.7,19.26208
35,55.41383
35.3,-22.38183
35.6,22.49875
35.9,16.67978
36.2,60.14961
36.5,-30.38887
36.8,-48.2287
37.1,40.00377
37.4,107.6822
37.7,4.846869
38,-28.46189
38.3,17.79624
38.6,-33.0051
38.9,45.84105
39.2,94.37503
39.5,-20.6962
39.8,-32.66566
40.1,45.17363
40.4,22.86198
40.7,-26.22696
41,-12.05288
41.3,-51.24213
41.6,106.2456
41.9,43.78392
42.2,8.075184
42.5,-30.87609
42.8,90.25529
43.1,-78.53883
43.4,-3.93332
43.7,-35.93634
44,38.77725
44.3,-59.80071
44.6,28.3216
44.9,3.135999
45.2,27.96765
45.5,-40.52497
45.8,34.31664
46.1,32.48431
46.4,-6.030152
46.7,-44.56825
47,-36.47149
47.3,-58.41471
47.6,19.59389
47.9,74.21283
48.2,25.43391
48.5,23.24897
48.8,24.31648
49.1,55.29496
49.4,32.84287
49.7,33.61872
50,10.94766
50.3,-15.17842
50.6,35.23692
50.9,-7.80292
51.2,-4.293897
51.5,-44.23199
51.8,29.0535
52.1,38.89992
52.4,-51.35535
52.7,-5.041639
53,-25.48824
53.3,-2.691126
53.6,0.02039289
53.9,2.650344
54.2,45.20275
54.5,4.348316
54.8,13.42439
55.1,39.10167
55.4,34.71752
55.7,53.60929
56,-37.55231
56.3,-32.09661
56.6,-20.01956
56.9,92.01618
57.2,47.34799
57.5,9.313217
57.8,1.249223
58.1,3.160037
58.4,11.71635
58.7,10.25553
59,-1.218413
59.3,0.6318959
59.6,19.14381
59.9,-9.011971
60.2,-37.16476
60.5,-38.64386
60.8,-10.11191
61.1,21.76844
61.4,20.33444
61.7,-1.079502
62,-15.80848
62.3,26.14564
62.6,34.78098
62.9,36.76232
63.2,-14.57886
63.5,0.7555481
63.8,-20.56966
64.1,-41.88968
64.4,-26.53974
64.7,-1.188374
65,-59.17079
65.3,-13.82219
65.6,-45.14445
65.9,-23.13946
66.2,32.19092
66.5,10.84481
66.8,59.487
67.1,1.448954
67.4,43.39546
67.7,38.65797
68,-6.098707
68.3,12.45687
68.6,34.32284
68.9,-50.50269
69.2,-22.02158
69.5,-6.902375
69.8,4.853048
70.1,-10.09052
70.4,-5.068283
70.7,-10.08212
71,4.866095
71.3,43.10782
71.6,-8.692152
71.9,-13.86903
72.2,-12.42469
72.5,8.972328
72.8,-29.67985
73.1,41.61689
73.4,-17.13931
73.7,30.71634
74,-24.81805
74.3,6.255655
74.6,20.60225
74.9,31.55318
75.2,-10.89341
75.5,16.59392
75.8,-15.9867
76.1,-45.30381
76.4,11.97406
76.7,-34.15499
77,-10.35948
77.3,16.69204
77.6,-9.66897
77.9,13.88894
78.2,50.69725
78.5,-22.57928
78.8,4.057504
79.1,-26.06096
79.4,-6.269863
79.7,-49.90443
80,-46.96652